Folder: kyungheeUNIV/23년여름방학_화학공학랩실/분석자료파일/202030706_XRD_NiO

File: NiO_500C_v1_Theta_2-Theta.asc
*TYPE		=  Raw
*CLASS		=  ASCII CLASS
*SAMPLE		=  NiO_500C_v1
*COMMENT	=
*FNAME		=  NiO_500C_v1_Theta_2-Theta.asc
*DATE		=  04-Jul-23 17:12

*GROUP_COUNT	=  1
*GONIO		=  MiniFlex 300/600, 150
*ATTACHMENT	=  ASC-6
*ASC		=  0, 0, 0.000000, 0.000000
*FILTER		=  None
*C_MONOCHRO	=  None, 0.000000
*SLIT_NAME	=  0, IHS
*SLIT_NAME	=  1, DS
*SLIT_NAME	=  2, SS
*SLIT_NAME	=  3, RS
*COUNTER	=  D/teX Ultra, 0
*POS_FORMAT	=  0
*SCAN_AXIS	=  2theta/theta
*MEAS_MODE	=  Continuous Scanning
*TARGET		=  29
*XRAY_CHAR	=  K-ALPHA
*WAVE_LENGTH1	=  1.54059
*WAVE_LENGTH2	=  1.54441
*THICKNESS	=  0, 0.000000
*MU		=  0, 0.000000
*SCAN_MODE	=  2theta/theta
*SPEED_DIM	=  sec./step
*XUNIT		=  deg.
*YUNIT		=  cps
*SCALE_MODE	=  1
*REP_COUNT	=  0
*SE_COUNT	=  0
*STD_MATERIAL	=  Unknown, Unknown, 0.000000, 0.000000, 0.000000, 0.000000, 0.000000, 0.000000
*LATT_CONS	=  0, Unknown, Unknown, 0.000000, 0.000000, 0.000000, 0.000000, 0.000000, 0.000000
*SEC_COUNT	=  1
*TSPEC_SIZE	=  0
*EXTRA_SIZE	=  0
*MEMO		=

*BEGIN
*GROUP		=  0
*START		=  20
*STOP		=  80
*STEP		=  0.02
*OFFSET		=  0.000000
*SPEED		=  0.8
*SLIT_SPEC	=  0, 10.0mm, 10, 0.000000
*SLIT_SPEC	=  1, 1.250deg, 1.25, 0.000000
*SLIT_SPEC	=  2, 13.0mm(Open), 13, 0.000000
*SLIT_SPEC	=  3, 13.0mm, 13, 0.000000
*KV		=  40
*MA		=  15
*LOW		=  0.000000
*HIGH		=  0.000000
*CTEMPER	=  0, 0.000000
*CTEMPER	=  1, 0.000000
*CTEMPER	=  2, 0.000000
*PAREX		=  0, 0.000000
*PAREX		=  1, 0.000000
*PAREX		=  2, 0.000000
*PAREX		=  3, 0.000000
*PAREX		=  4, 0.000000
*PAREX		=  5, 0.000000
*PAREX		=  6, 0.000000
*PAREX		=  7, 0.000000
*PAREX		=  8, 0.000000
*PAREX		=  9, 0.000000
*PAREX		=  10, 0.000000
*PAREX		=  11, 0.000000
*PAREX		=  12, 0.000000
*PAREX		=  13, 0.000000
*PAREX		=  14, 0.000000
*PAREX		=  15, 0.000000
*FULL_SCALE	=  87951
*INDEX		=  0, 0, 0
*COUNT		=  3001
5788, 5949, 5870, 5932
6026, 6114, 6010, 6028
6086, 6061, 5959, 5995
5942, 5980, 6117, 5963
6026, 6026, 6109, 6080
6032, 5968, 6060, 6142
6051, 6033, 6157, 6144
6129, 6030, 6108, 6166
6150, 6174, 6164, 6372
6316, 6247, 6061, 6213
6189, 6171, 6166, 6219
6212, 6252, 6219, 6117
6130, 6291, 6128, 6216
6283, 6222, 6210, 6173
6197, 6062, 6254, 6264
6259, 6369, 6261, 6382
6244, 6157, 6157, 6258
6264, 6192, 6260, 6197
6381, 6232, 6359, 6323
6353, 6382, 6322, 6187
6319, 6288, 6251, 6433
6389, 6270, 6285, 6288
6219, 6406, 6448, 6237
6229, 6241, 6195, 6315
6294, 6260, 6208, 6326
6348, 6339, 6333, 6449
6397, 6227, 6252, 6194
6274, 6194, 6208, 6391
6388, 6344, 6328, 6430
6235, 6251, 6417, 6363
6432, 6317, 6306, 6314
6341, 6316, 6300, 6398
6346, 6418, 6310, 6304
6329, 6285, 6379, 6363
6252, 6302, 6296, 6268
6273, 6255, 6363, 6413
6291, 6345, 6361, 6214
6345, 6296, 6297, 6407
6327, 6215, 6302, 6308
6375, 6370, 6381, 6348
6320, 6346, 6295, 6358
6443, 6282, 6267, 6212
6279, 6219, 6188, 6279
6379, 6452, 6442, 6323
6211, 6364, 6238, 6274
6315, 6328, 6332, 6381
6450, 6409, 6352, 6190
6294, 6346, 6223, 6200
6336, 6275, 6387, 6255
6257, 6365, 6298, 6245
6350, 6379, 6352, 6344
6292, 6336, 6297, 6324
6436, 6347, 6345, 6264
6332, 6414, 6493, 6373
6299, 6401, 6388, 6252
6230, 6286, 6378, 6418
6476, 6471, 6403, 6478
6463, 6456, 6367, 6367
6400, 6405, 6277, 6396
6240, 6303, 6372, 6464
6367, 6488, 6402, 6371
6310, 6503, 6428, 6345
6494, 6448, 6365, 6327
6557, 6473, 6472, 6604
6582, 6564, 6513, 6419
6576, 6404, 6591, 6703
6745, 6617, 6797, 6922
6888, 6976, 7026, 6935
7098, 7360, 7285, 7360
7881, 8125, 8414, 8290
10343, 10730, 10996, 11378
19207, 20339, 22566, 24631
39961, 38952, 37043, 35391
16180, 14704, 13805, 13175
8835, 8607, 8407, 8253
7432, 7249, 7304, 7257
6972, 6852, 7070, 6864
6832, 6665, 6704, 6604
6751, 6728, 6752, 6709
6560, 6499, 6561, 6587
6512, 6509, 6445, 6559
6633, 6509, 6361, 6565
6421, 6448, 6410, 6398
6454, 6475, 6435, 6534
6521, 6330, 6516, 6424
6440, 6407, 6524, 6466
6481, 6447, 6383, 6442
6481, 6593, 6532, 6521
6463, 6438, 6706, 6523
6482, 6566, 6598, 6669
6790, 6786, 6667, 6714
7013, 7009, 7042, 6971
7220, 7206, 7294, 7339
7759, 7758, 7863, 7777
8720, 8882, 9154, 9161
11988, 12436, 13218, 13541
23143, 24990, 27303, 29506
58236, 58634, 57913, 56592
27469, 25060, 22912, 21156
11910, 11397, 11019, 10615
8669, 8500, 8501, 8292
7448, 7572, 7431, 7439
7208, 7194, 7130, 7053
6936, 6910, 6832, 6850
6806, 6764, 6654, 6719
6579, 6754, 6597, 6711
6506, 6493, 6555, 6547
6538, 6600, 6629, 6590
6450, 6474, 6479, 6472
6558, 6406, 6417, 6492
6419, 6438, 6536, 6498
6453, 6331, 6413, 6434
6434, 6481, 6373, 6433
6385, 6418, 6438, 6413
6286, 6301, 6376, 6433
6283, 6403, 6393, 6412
6280, 6251, 6416, 6249
6271, 6395, 6380, 6420
6330, 6272, 6427, 6291
6503, 6257, 6331, 6199
6222, 6365, 6258, 6197
6318, 6308, 6285, 6285
6300, 6249, 6326, 6305
6357, 6280, 6262, 6262
6312, 6336, 6263, 6146
6285, 6284, 6380, 6293
6185, 6255, 6342, 6315
6253, 6262, 6097, 6266
6336, 6269, 6242, 6312
6314, 6313, 6138, 6152
6298, 6215, 6240, 6338
6333, 6253, 6053, 6211
6266, 6251, 6207, 6260
6113, 6270, 6178, 6161
6326, 6226, 6120, 6168
6238, 6231, 6251, 6196
6287, 6302, 6348, 6170
6181, 6098, 6274, 6131
6322, 6038, 6129, 6208
6259, 6274, 6070, 6204
6107, 6188, 6344, 6267
6213, 6282, 6239, 6234
6237, 6173, 6130, 6303
6171, 6226, 6267, 6228
6186, 6140, 6108, 6179
6328, 6104, 6167, 6238
6188, 6181, 6114, 6165
6240, 6174, 6225, 6139
6194, 6247, 6152, 6347
6164, 6150, 6215, 6148
6241, 6256, 6315, 6217
6274, 6353, 6171, 6191
6113, 6179, 6203, 6302
6209, 6314, 6270, 6169
6217, 6139, 6164, 6124
6158, 6213, 6341, 6134
6289, 6257, 6214, 6106
6217, 6235, 6243, 6228
6246, 6268, 6288, 6258
6171, 6280, 6222, 6299
6233, 6074, 6066, 6121
6218, 6183, 6106, 6166
6156, 6035, 6110, 6204
6221, 6213, 6150, 6034
6304, 6201, 6152, 6209
6209, 6368, 6219, 6167
6158, 6208, 6303, 6213
6265, 6272, 6172, 6235
6191, 6299, 6287, 6284
6475, 6332, 6383, 6302
6413, 6330, 6300, 6413
6287, 6463, 6557, 6404
6428, 6516, 6411, 6460
6504, 6541, 6586, 6519
6792, 6646, 6795, 6787
7190, 7160, 7231, 7278
8076, 8220, 8302, 8462
10992, 11398, 12112, 12546
20035, 21132, 22225, 23499
25366, 24791, 23762, 22993
13928, 13231, 12622, 11897
8725, 8453, 8229, 8265
7322, 7239, 7193, 7062
6838, 6767, 6636, 6693
6551, 6470, 6521, 6460
6434, 6378, 6407, 6453
6361, 6346, 6315, 6444
6303, 6364, 6381, 6393
6317, 6374, 6330, 6315
6246, 6279, 6328, 6333
6394, 6392, 6235, 6300
6308, 6358, 6152, 6328
6238, 6311, 6222, 6234
6348, 6421, 6304, 6209
6234, 6216, 6297, 6305
6221, 6236, 6234, 6245
6204, 6257, 6176, 6333
6113, 6222, 6209, 6229
6216, 6301, 6131, 6281
6194, 6286, 6196, 6259
6101, 6241, 6131, 6302
6105, 6179, 6178, 6245
6217, 6110, 6082, 6113
6118, 6262, 6171, 6240
6224, 6051, 6145, 6204
6088, 6240, 6189, 6163
6205, 6241, 6257, 6170
6109, 6091, 6187, 6219
6284, 6194, 6148, 6193
6185, 6241, 6171, 6155
6315, 6293, 6216, 6187
6212, 6145, 6180, 6310
6253, 6178, 6155, 6222
6186, 6139, 6215, 6329
6177, 6140, 6131, 6245
6063, 6282, 6146, 6124
6196, 6168, 6234, 6192
6199, 6162, 6170, 6246
6290, 6184, 6260, 6241
6206, 6294, 6222, 6284
6209, 6161, 6060, 6082
6266, 6272, 6369, 6197
6341, 6221, 6192, 6204
6248, 6280, 6226, 6213
6343, 6204, 6126, 6143
6448, 6357, 6286, 6415
6347, 6234, 6475, 6365
6504, 6439, 6470, 6572
6634, 6856, 7019, 7064
7779, 7874, 8189, 8050
10354, 10501, 10849, 11142
13019, 13074, 12740, 12502
10424, 10103, 9688, 9320
7514, 7474, 7211, 7218
6721, 6661, 6679, 6839
6365, 6464, 6433, 6548
6436, 6348, 6390, 6325
6366, 6320, 6246, 6251
6250, 6319, 6339, 6213
6219, 6308, 6257, 6139
6283, 6279, 6297, 6165
6236, 6405, 6232, 6241
6373, 6365, 6382, 6228
6565, 6466, 6283, 6383
6536, 6496, 6394, 6437
6906, 6915, 7052, 6999
7798, 7987, 8098, 8258
10215, 10557, 10485, 10716
10437, 10220, 10168, 9849
8310, 8081, 8004, 7822
6969
*END

*EOF